* Measurement data measured by REW V5.20.13
* Source: Microphone (USB Sound Device        ), MICROPHONE (Master Volume), R, volume: 0,250
* Format: 256k Log Swept Sine, 1 sweep at -12,0 dBFS with no timing reference
* Dated: 06:01:41 23-07-2024
* REW Settings:
*  C-weighting compensation: Off
*  Target level: 75.0 dB
* Note: ; 
* Measurement: MiM DM v1 set 2 Tanya L
* Smoothing: None
* Frequency Step: 1/48 octave
* Start Frequency: 1.000 Hz
*
* Freq(Hz) SPL(dB) Phase(degrees)
1.000000 84.284 121.7426
1.015000 84.102 120.8657
1.030000 83.913 119.9874
1.044000 83.729 119.1664
1.060000 83.511 118.2264
1.075000 83.297 117.3435
1.090000 83.075 116.4587
1.106000 82.829 115.4741
1.120000 82.612 114.3700
1.138000 82.331 112.6061
1.150000 82.143 111.2467
1.172000 81.792 108.4508
1.180000 81.663 107.3568
1.206000 81.234 103.6156
1.220000 80.996 101.5371
1.241000 80.630 98.4249
1.250000 80.468 97.1169
1.265000 80.193 95.0035
1.280000 79.909 93.0086
1.315000 79.208 89.0416
1.320000 79.103 88.5754
1.340000 78.671 87.0222
1.360000 78.216 86.0391
1.380000 77.737 85.7220
1.400000 77.233 86.1667
1.430000 76.423 88.4719
1.450000 75.845 91.2406
1.475000 75.065 96.3273
1.500000 74.121 103.8412
1.525000 73.018 113.5880
1.550000 71.793 125.1876
1.575000 70.481 138.2600
1.600000 69.116 152.4250
1.625000 67.735 167.3027
1.650000 66.373 -177.4872
1.675000 65.065 -162.3247
1.700000 63.846 -147.5898
1.725000 62.751 -133.6626
1.750000 61.817 -120.9233
1.775000 61.078 -109.7518
1.800000 60.569 -100.5284
1.825000 60.327 -93.6329
1.850000 60.386 -89.1560
1.875000 60.747 -86.4876
1.900000 61.370 -85.4002
1.925000 62.214 -85.6899
1.950000 63.241 -87.1532
1.975000 64.411 -89.5863
2.000000 65.682 -92.7854
2.030000 67.287 -97.3488
2.060000 68.914 -102.3699
2.090000 70.492 -107.4967
2.120000 71.955 -112.3773
2.140000 72.831 -115.3204
2.180000 74.254 -119.9915
2.200000 74.761 -121.5168
2.240000 75.525 -123.9841
2.270000 75.955 -125.7190
2.300000 76.278 -127.3654
2.330000 76.510 -128.9331
2.360000 76.665 -130.4317
2.400000 76.775 -132.3389
2.430000 76.805 -133.7135
2.470000 76.802 -135.4904
2.500000 76.786 -136.7935
2.540000 76.774 -138.5100
2.580000 76.794 -140.2278
2.620000 76.785 -141.9876
2.650000 76.748 -143.3174
2.690000 76.661 -145.0691
2.720000 76.568 -146.3431
2.760000 76.408 -147.9539
2.800000 76.209 -149.4247
2.850000 75.908 -151.0002
2.900000 75.552 -152.2044
2.950000 75.136 -153.0123
3.000000 74.598 -153.8289
3.040000 74.091 -154.4394
3.070000 73.682 -154.7990
3.110000 73.114 -155.0582
3.150000 72.541 -154.9635
3.200000 71.850 -154.1774
3.250000 71.227 -152.4464
3.300000 70.714 -149.5497
3.350000 70.246 -144.9421
3.400000 69.782 -138.7298
3.450000 69.352 -131.4820
3.500000 68.988 -123.7677
3.550000 68.722 -116.1561
3.600000 68.584 -109.2162
3.650000 68.608 -103.5173
3.700000 68.841 -99.2166
3.750000 69.310 -95.5868
3.820000 70.236 -91.4851
3.870000 70.997 -89.1937
3.950000 72.197 -86.5080
4.000000 72.829 -85.3715
4.060000 73.390 -84.5776
4.120000 73.859 -84.7584
4.180000 74.262 -85.7227
4.250000 74.654 -87.4720
4.310000 74.926 -89.1926
4.370000 75.140 -90.8275
4.440000 75.315 -92.4903
4.500000 75.393 -94.0964
4.550000 75.411 -95.5252
4.620000 75.373 -97.5504
4.680000 75.291 -99.2043
4.750000 75.145 -100.9021
4.820000 74.939 -102.3956
4.870000 74.744 -103.4586
4.940000 74.418 -104.8286
5.000000 74.103 -105.7882
5.080000 73.655 -106.5839
5.150000 73.251 -106.6736
5.220000 72.780 -106.2485
5.300000 72.189 -105.2292
5.380000 71.613 -103.7043
5.450000 71.183 -102.0073
5.520000 70.867 -99.9630
5.600000 70.602 -96.7364
5.700000 70.388 -91.9823
5.800000 70.306 -87.5450
5.900000 70.369 -84.4801
6.000000 70.640 -82.3458
6.080000 70.941 -81.1953
6.150000 71.206 -80.6328
6.220000 71.426 -80.5157
6.300000 71.625 -81.0469
6.400000 71.858 -82.6519
6.500000 72.042 -84.8993
6.600000 72.145 -87.3588
6.700000 72.157 -90.1440
6.800000 72.095 -93.3120
6.900000 71.975 -96.5558
7.000000 71.804 -99.6265
7.100000 71.563 -102.7380
7.200000 71.273 -105.7693
7.300000 70.972 -108.4916
7.400000 70.663 -110.7841
7.500000 70.321 -112.7722
7.620000 69.938 -114.7115
7.750000 69.638 -116.1467
7.880000 69.425 -116.7655
8.000000 69.330 -117.0600
8.120000 69.377 -117.4617
8.250000 69.590 -117.7754
8.380000 69.896 -118.2946
8.500000 70.218 -119.2780
8.620000 70.609 -120.6505
8.750000 71.040 -122.3920
8.850000 71.338 -123.8469
9.000000 71.764 -126.3452
9.120000 72.072 -128.3398
9.250000 72.351 -130.3058
9.380000 72.582 -132.1787
9.500000 72.768 -133.6709
9.620000 72.929 -134.8408
9.750000 73.072 -135.8138
9.880000 73.210 -136.4989
10.000000 73.341 -136.8400
10.150000 73.504 -136.9244
10.300000 73.684 -136.8598
10.440000 73.872 -136.6326
10.600000 74.096 -136.3140
10.750000 74.307 -136.0948
10.900000 74.519 -135.9011
11.060000 74.722 -135.7481
11.200000 74.881 -135.6694
11.380000 75.058 -135.5461
11.500000 75.155 -135.4346
11.720000 75.302 -135.1625
11.800000 75.349 -135.0250
12.060000 75.477 -134.4858
12.200000 75.541 -134.1850
12.410000 75.626 -133.7375
12.500000 75.658 -133.5840
12.650000 75.706 -133.3712
12.800000 75.742 -133.2098
13.150000 75.765 -133.0463
13.200000 75.762 -133.0298
13.400000 75.731 -132.9805
13.600000 75.685 -132.9208
13.800000 75.629 -132.8239
14.000000 75.578 -132.7608
14.300000 75.515 -132.7881
14.500000 75.486 -133.0041
14.750000 75.450 -133.5357
15.000000 75.408 -134.3593
15.250000 75.346 -135.3782
15.500000 75.275 -136.4579
15.750000 75.202 -137.5277
16.000000 75.149 -138.5138
16.250000 75.132 -139.4729
16.500000 75.154 -140.4453
16.750000 75.214 -141.5061
17.000000 75.293 -142.6541
17.250000 75.384 -143.8456
17.500000 75.475 -145.0132
17.750000 75.566 -146.0495
18.000000 75.659 -146.9279
18.250000 75.758 -147.6213
18.500000 75.867 -148.1700
18.750000 75.982 -148.6069
19.000000 76.099 -148.9623
19.250000 76.209 -149.2493
19.500000 76.310 -149.4582
19.750000 76.400 -149.5843
20.000000 76.481 -149.6293
20.299999 76.566 -149.6163
20.600000 76.638 -149.5725
20.900000 76.690 -149.5350
21.200001 76.719 -149.5056
21.400000 76.724 -149.4700
21.799999 76.711 -149.3397
22.000000 76.699 -149.2528
22.400000 76.676 -149.1053
22.700001 76.664 -149.1084
23.000000 76.650 -149.2701
23.299999 76.627 -149.5740
23.600000 76.594 -149.9694
24.000000 76.543 -150.5560
24.299999 76.512 -151.0133
24.700001 76.493 -151.6773
25.000000 76.496 -152.2484
25.400000 76.514 -153.1046
25.799999 76.542 -153.9893
26.200001 76.578 -154.8065
26.500000 76.614 -155.3488
26.900000 76.674 -155.9815
27.200001 76.724 -156.3945
27.600000 76.791 -156.8563
28.000000 76.855 -157.1994
28.500000 76.930 -157.4712
29.000000 76.996 -157.6293
29.500000 77.044 -157.7178
30.000000 77.076 -157.7637
30.400000 77.092 -157.8132
30.700001 77.097 -157.8854
31.100000 77.093 -158.0367
31.500000 77.074 -158.2242
32.000000 77.041 -158.4627
32.500000 77.015 -158.7328
33.000000 76.999 -159.1133
33.500000 76.985 -159.5923
34.000000 76.974 -160.0674
34.500000 76.979 -160.4981
35.000000 77.004 -160.9382
35.500000 77.034 -161.4036
36.000000 77.062 -161.8180
36.500000 77.091 -162.1332
37.000000 77.125 -162.3972
37.500000 77.154 -162.6544
38.200001 77.171 -162.9140
38.700001 77.180 -162.9860
39.500000 77.209 -163.1416
40.000000 77.221 -163.3616
40.599998 77.218 -163.6774
41.200001 77.208 -163.9644
41.799999 77.203 -164.2410
42.500000 77.204 -164.5849
43.099998 77.209 -164.8806
43.700001 77.219 -165.1741
44.400002 77.227 -165.4936
45.000000 77.232 -165.6929
45.500000 77.241 -165.8246
46.200001 77.255 -166.0674
46.799999 77.244 -166.2675
47.500000 77.232 -166.2347
48.200001 77.284 -166.2161
48.700001 77.333 -166.5670
49.400002 77.325 -167.3754
50.000000 77.255 -167.7063
50.799999 77.223 -167.5762
51.500000 77.259 -167.7255
52.200001 77.262 -168.0845
53.000000 77.251 -168.2527
53.799999 77.266 -168.4398
54.500000 77.264 -168.6945
55.200001 77.256 -168.8529
56.000000 77.261 -169.0363
57.000000 77.260 -169.3585
58.000000 77.257 -169.5950
59.000000 77.262 -169.7805
60.000000 77.282 -169.9460
60.799999 77.293 -170.2187
61.500000 77.273 -170.4485
62.200001 77.246 -170.4956
63.000000 77.241 -170.4960
64.000000 77.240 -170.7197
65.000000 77.228 -170.9213
66.000000 77.241 -171.1709
67.000000 77.239 -171.5516
68.000000 77.223 -171.6988
69.000000 77.241 -171.7126
70.000000 77.270 -171.8611
71.000000 77.283 -172.0836
72.000000 77.282 -172.3093
73.000000 77.271 -172.5424
74.000000 77.250 -172.6959
75.000000 77.247 -172.7874
76.199997 77.245 -172.9473
77.500000 77.256 -173.1393
78.800003 77.247 -173.2994
80.000000 77.255 -173.6158
81.199997 77.204 -173.7979
82.500000 77.213 -173.8693
83.800003 77.191 -174.1331
85.000000 77.190 -174.2137
86.199997 77.191 -174.4200
87.500000 77.171 -174.6479
88.500000 77.164 -174.6671
90.000000 77.168 -174.9838
91.199997 77.150 -175.0624
92.500000 77.154 -175.2367
93.800003 77.140 -175.3552
95.000000 77.133 -175.4618
96.199997 77.124 -175.5716
97.500000 77.106 -175.7340
98.800003 77.099 -175.7605
100.000000 77.097 -175.9714
101.500000 77.074 -176.0402
103.000000 77.070 -176.1933
104.400002 77.051 -176.3455
106.000000 77.043 -176.4068
107.500000 77.025 -176.6559
109.000000 77.007 -176.6277
110.599998 77.009 -176.7977
112.000000 76.977 -176.8915
113.800003 76.971 -177.0103
115.000000 76.954 -177.0141
117.199997 76.951 -177.2154
118.000000 76.945 -177.2614
120.599998 76.908 -177.3805
122.000000 76.903 -177.5152
124.099998 76.889 -177.6243
125.000000 76.872 -177.7305
126.500000 76.856 -177.5891
128.000000 76.868 -177.7865
131.500000 76.804 -177.9444
132.000000 76.803 -177.9347
134.000000 76.785 -178.0835
136.000000 76.762 -178.0999
138.000000 76.745 -178.2146
140.000000 76.712 -178.1030
143.000000 76.700 -178.0954
145.000000 76.676 -178.1517
147.500000 76.671 -178.1745
150.000000 76.665 -178.1881
152.500000 76.657 -178.3001
155.000000 76.652 -178.4067
157.500000 76.627 -178.4475
160.000000 76.596 -178.5424
162.500000 76.574 -178.6093
165.000000 76.546 -178.6193
167.500000 76.525 -178.6380
170.000000 76.485 -178.6799
172.500000 76.442 -178.5521
175.000000 76.416 -178.3598
177.500000 76.418 -178.0188
180.000000 76.443 -177.8348
182.500000 76.475 -177.9161
185.000000 76.489 -178.1461
187.500000 76.489 -178.3346
190.000000 76.488 -178.4374
192.500000 76.470 -178.5559
195.000000 76.455 -178.7591
197.500000 76.421 -178.6937
200.000000 76.404 -178.7679
203.000000 76.380 -178.8311
206.000000 76.354 -178.8563
209.000000 76.324 -178.8890
212.000000 76.300 -178.9319
214.000000 76.293 -178.9366
218.000000 76.259 -178.9757
220.000000 76.243 -178.9727
224.000000 76.211 -179.0043
227.000000 76.179 -178.9680
230.000000 76.164 -178.9405
233.000000 76.146 -178.7849
236.000000 76.138 -178.8560
240.000000 76.098 -178.8221
243.000000 76.079 -178.8713
247.000000 76.052 -178.7778
250.000000 76.039 -178.6807
254.000000 76.006 -178.6880
258.000000 75.991 -178.6837
262.000000 75.957 -178.6516
265.000000 75.932 -178.6171
269.000000 75.904 -178.5961
272.000000 75.896 -178.5727
276.000000 75.853 -178.5293
280.000000 75.842 -178.4547
285.000000 75.808 -178.2964
290.000000 75.759 -178.2753
295.000000 75.746 -178.1335
300.000000 75.708 -178.0679
304.000000 75.683 -177.9482
307.000000 75.666 -177.8231
311.000000 75.641 -177.9310
315.000000 75.607 -177.7502
320.000000 75.600 -177.6616
325.000000 75.547 -177.4851
330.000000 75.514 -177.4339
335.000000 75.500 -177.3190
340.000000 75.464 -177.1052
345.000000 75.425 -176.9914
350.000000 75.397 -176.9178
355.000000 75.383 -176.7642
360.000000 75.353 -176.6789
365.000000 75.316 -176.4960
370.000000 75.292 -176.2736
375.000000 75.256 -176.1382
382.000000 75.234 -175.9349
387.000000 75.206 -175.8271
395.000000 75.156 -175.5616
400.000000 75.131 -175.2984
406.000000 75.100 -175.2397
412.000000 75.067 -175.0401
418.000000 75.023 -174.6762
425.000000 74.987 -174.4191
431.000000 74.962 -174.2725
437.000000 74.937 -174.0623
444.000000 74.905 -173.8074
450.000000 74.884 -173.6114
455.000000 74.841 -173.3445
462.000000 74.804 -173.1266
468.000000 74.791 -172.9244
475.000000 74.753 -172.5311
482.000000 74.727 -172.3118
487.000000 74.688 -172.0702
494.000000 74.671 -171.8503
500.000000 74.630 -171.6075
508.000000 74.607 -171.1891
515.000000 74.575 -170.8879
522.000000 74.535 -170.5115
530.000000 74.524 -170.2965
538.000000 74.486 -169.8262
545.000000 74.457 -169.5539
552.000000 74.445 -169.2206
560.000000 74.398 -168.8066
570.000000 74.371 -168.3146
580.000000 74.350 -167.9328
590.000000 74.292 -167.3954
600.000000 74.287 -166.8679
608.000000 74.245 -166.4977
615.000000 74.238 -166.1440
622.000000 74.214 -165.7034
630.000000 74.174 -165.2896
640.000000 74.162 -164.7867
650.000000 74.138 -164.1613
660.000000 74.108 -163.7855
670.000000 74.089 -163.1098
680.000000 74.061 -162.5289
690.000000 74.039 -161.9568
700.000000 74.023 -161.3198
710.000000 74.034 -160.8214
720.000000 74.010 -160.2785
730.000000 73.978 -159.6878
740.000000 73.981 -158.9753
750.000000 73.960 -158.2371
762.000000 73.987 -157.5744
775.000000 73.983 -156.7841
788.000000 73.986 -155.9767
800.000000 73.991 -155.1976
812.000000 73.992 -154.4276
825.000000 74.028 -153.4646
838.000000 74.058 -152.7378
850.000000 74.106 -151.8881
862.000000 74.147 -151.1182
875.000000 74.197 -150.2767
885.000000 74.223 -149.8665
900.000000 74.293 -149.1054
912.000000 74.372 -148.5002
925.000000 74.401 -147.8912
938.000000 74.472 -147.2084
950.000000 74.516 -146.7380
962.000000 74.568 -146.1508
975.000000 74.623 -145.5396
988.000000 74.671 -144.8682
1000.000000 74.733 -143.9317
1015.000000 74.838 -143.5705
1030.000000 74.913 -142.9598
1044.000000 75.046 -142.4205
1060.000000 75.118 -141.8123
1075.000000 75.229 -141.3300
1090.000000 75.311 -140.9717
1106.000000 75.439 -140.6253
1120.000000 75.520 -140.2014
1138.000000 75.649 -139.8955
1150.000000 75.710 -139.6110
1172.000000 75.842 -139.4406
1180.000000 75.891 -139.2789
1206.000000 76.049 -138.9467
1220.000000 76.119 -138.7973
1241.000000 76.239 -138.4579
1250.000000 76.306 -138.4120
1265.000000 76.364 -138.2524
1280.000000 76.452 -138.1515
1315.000000 76.600 -137.9583
1320.000000 76.634 -138.0873
1340.000000 76.730 -137.8115
1360.000000 76.827 -137.8687
1380.000000 76.920 -137.6694
1400.000000 76.972 -137.7377
1430.000000 77.128 -137.6735
1450.000000 77.223 -137.6579
1475.000000 77.311 -137.5311
1500.000000 77.409 -137.5219
1525.000000 77.496 -137.6645
1550.000000 77.590 -137.5014
1575.000000 77.703 -137.7560
1600.000000 77.809 -137.5443
1625.000000 77.874 -137.7698
1650.000000 77.976 -137.8789
1675.000000 78.061 -138.0381
1700.000000 78.154 -138.1718
1725.000000 78.235 -138.3263
1750.000000 78.324 -138.5218
1775.000000 78.424 -138.7471
1800.000000 78.494 -138.9657
1825.000000 78.584 -139.1846
1850.000000 78.663 -139.5493
1875.000000 78.751 -139.9049
1900.000000 78.821 -140.2486
1925.000000 78.895 -140.6353
1950.000000 78.967 -141.1498
1975.000000 79.039 -141.4881
2000.000000 79.041 -142.0210
2030.000000 79.160 -142.5318
2060.000000 79.231 -143.1539
2090.000000 79.280 -143.7458
2120.000000 79.344 -144.4603
2140.000000 79.355 -144.9027
2180.000000 79.420 -145.8185
2200.000000 79.436 -146.3261
2240.000000 79.454 -147.3561
2270.000000 79.481 -148.0706
2300.000000 79.477 -148.8774
2330.000000 79.468 -149.5714
2360.000000 79.471 -150.3158
2400.000000 79.411 -151.2184
2430.000000 79.405 -152.0315
2470.000000 79.345 -152.8457
2500.000000 79.285 -153.4237
2540.000000 79.221 -154.1388
2580.000000 79.136 -155.0793
2620.000000 79.073 -155.6264
2650.000000 78.997 -156.0522
2690.000000 78.926 -156.7161
2720.000000 78.827 -157.1600
2760.000000 78.704 -157.7446
2800.000000 78.565 -157.9702
2850.000000 78.455 -157.8642
2900.000000 78.375 -157.5916
2950.000000 78.357 -158.0450
3000.000000 78.238 -158.7325
3040.000000 78.246 -159.0834
3070.000000 78.154 -159.4242
3110.000000 78.042 -159.7492
3150.000000 77.953 -159.7982
3200.000000 77.833 -160.1615
3250.000000 77.741 -160.3065
3300.000000 77.602 -160.3927
3350.000000 77.461 -160.2415
3400.000000 77.339 -160.2750
3450.000000 77.208 -160.3155
3500.000000 77.127 -160.1288
3550.000000 77.012 -159.9908
3600.000000 76.933 -159.5732
3650.000000 76.800 -159.3098
3700.000000 76.712 -159.0246
3750.000000 76.631 -158.4583
3820.000000 76.558 -157.5380
3870.000000 76.528 -157.3364
3950.000000 76.495 -156.9149
4000.000000 76.367 -156.4329
4060.000000 76.407 -156.1404
4120.000000 76.393 -155.7103
4180.000000 76.346 -155.4401
4250.000000 76.330 -154.6187
4310.000000 76.348 -154.4957
4370.000000 76.340 -154.3893
4440.000000 76.349 -154.1118
4500.000000 76.387 -153.9062
4550.000000 76.384 -153.7249
4620.000000 76.401 -153.7631
4680.000000 76.398 -153.8543
4750.000000 76.397 -153.8621
4820.000000 76.397 -153.9421
4870.000000 76.426 -154.0733
4940.000000 76.402 -154.2689
5000.000000 76.333 -154.8264
5080.000000 76.328 -154.9106
5150.000000 76.260 -155.3000
5220.000000 76.178 -155.5273
5300.000000 76.086 -155.0332
5380.000000 76.032 -154.8451
5450.000000 75.981 -154.5826
5520.000000 75.936 -154.1593
5600.000000 75.958 -154.3951
5700.000000 75.921 -154.3787
5800.000000 75.889 -154.1523
5900.000000 75.843 -153.9714
6000.000000 75.733 -153.5962
6080.000000 75.719 -153.5691
6150.000000 75.685 -153.3129
6220.000000 75.714 -153.0330
6300.000000 75.679 -152.6372
6400.000000 75.657 -152.2607
6500.000000 75.720 -151.8504
6600.000000 75.764 -151.1694
6700.000000 75.866 -150.7019
6800.000000 75.986 -150.4020
6900.000000 76.133 -150.1228
7000.000000 76.338 -150.0551
7100.000000 76.543 -150.1900
7200.000000 76.784 -150.3593
7300.000000 77.129 -151.0794
7400.000000 77.460 -152.3027
7500.000000 77.818 -154.2788
7620.000000 78.208 -157.1604
7750.000000 78.618 -161.4857
7880.000000 78.912 -166.6519
8000.000000 79.078 -172.9489
8120.000000 79.011 -179.3262
8250.000000 78.717 173.4471
8380.000000 78.158 166.4930
8500.000000 77.432 161.0848
8620.000000 76.605 157.0096
8750.000000 75.721 153.8901
8850.000000 75.062 152.1883
9000.000000 74.120 149.9117
9120.000000 73.376 148.7689
9250.000000 72.518 147.7457
9380.000000 71.647 146.7890
9500.000000 70.865 147.1993
9620.000000 70.186 147.9623
9750.000000 69.376 149.6548
9880.000000 68.726 150.5568
10000.000000 67.976 152.8570
10150.000000 67.435 155.0299
10300.000000 66.936 157.3978
10440.000000 66.258 159.7523
10600.000000 65.779 164.0600
10750.000000 65.251 167.7749
10900.000000 64.866 172.0144
11060.000000 64.464 174.3008
11200.000000 64.355 178.7626
11380.000000 64.058 -177.3930
11500.000000 63.876 -174.5902
11720.000000 63.650 -168.5521
11800.000000 63.849 -166.5022
12060.000000 63.804 -160.8881
12200.000000 63.850 -156.6249
12410.000000 64.181 -151.4237
12500.000000 64.308 -149.5644
12650.000000 64.497 -146.8023
12800.000000 64.823 -142.2126
13150.000000 66.045 -135.6177
13200.000000 66.321 -134.9128
13400.000000 67.375 -131.4064
13600.000000 68.523 -128.2860
13800.000000 70.117 -126.7878
14000.000000 71.948 -128.1361
14300.000000 75.906 -139.0162
14500.000000 78.383 -159.1348
14750.000000 78.406 162.7364
15000.000000 75.377 139.9063
15250.000000 72.669 132.1639
15500.000000 70.665 129.3705
15750.000000 69.243 128.1145
16000.000000 68.162 127.8485
16250.000000 67.281 126.8691
16500.000000 66.525 123.2436
16750.000000 65.814 120.5324
17000.000000 64.642 116.7585
17250.000000 63.421 114.1939
17500.000000 62.117 113.7367
17750.000000 61.323 112.8955
18000.000000 60.382 111.3956
18250.000000 59.003 112.4771
18500.000000 57.356 110.7324
18750.000000 55.634 111.3681
19000.000000 54.148 112.3888
19250.000000 52.206 118.5873
19500.000000 51.048 118.3125
19750.000000 49.345 124.6804
20000.000000 47.844 152.4021
20300.000000 46.529 134.4630
20600.000000 45.323 145.3650
20900.000000 44.960 171.1537
21200.000000 30.543 171.5578
21400.000000 35.692 125.4014
21800.000000 15.457 -134.5254
22000.000000 29.091 -162.2675
22400.000000 19.545 173.5400
22700.000000 15.231 110.0566
23000.000000 8.206 140.5469
23300.000000 13.652 -113.5898
23600.000000 20.700 110.2773

